Folder: tRNA_structure-seq/Structure_seq_analysis/MaP_combined

Note: Structure_seq_analysis/MaP_combined/Eco_invivo_combined_Ala-GGC-1-1_profile.txt
Nucleotide	Sequence	Modified_mutations	Modified_read_depth	Modified_effective_depth	Modified_rate	Modified_off_target_mapped_depth	Modified_low_mapq_mapped_depth	Modified_mapped_depth	Untreated_mutations	Untreated_read_depth	Untreated_effective_depth	Untreated_rate	Untreated_off_target_mapped_depth	Untreated_low_mapq_mapped_depth	Untreated_mapped_depth	Denatured_mutations	Denatured_read_depth	Denatured_effective_depth	Denatured_rate	Denatured_off_target_mapped_depth	Denatured_low_mapq_mapped_depth	Denatured_mapped_depth	Reactivity_profile	Std_err	HQ_profile	HQ_stderr	Norm_profile	Norm_stderr
1	G	0	16257	15484	0.000000	0	35	16257	0	16892	16056	0.000000	0	47	16892	0	0	0	nan	0	0	0	0.000000	0.000000	0.000000	0.000000	0.000000	0.000000
2	G	0	17039	15885	0.000000	0	38	17039	0	17296	15979	0.000000	0	48	17296	0	0	0	nan	0	0	0	0.000000	0.000000	0.000000	0.000000	0.000000	0.000000
3	G	231	17443	16220	0.014242	0	39	17443	140	17453	16055	0.008720	0	49	17453	0	0	0	nan	0	0	0	0.005522	0.001192	0.005522	0.001192	0.128505	0.027740
4	G	1016	17491	16461	0.061722	0	40	17491	142	17469	16281	0.008722	0	50	17469	0	0	0	nan	0	0	0	0.053000	0.002070	0.053000	0.002070	1.233390	0.048172
5	C	191	17594	16799	0.011370	0	40	17594	155	17499	16629	0.009321	0	50	17499	0	0	0	nan	0	0	0	0.002049	0.001112	0.002049	0.001112	0.047683	0.025878
6	U	56	17915	17435	0.003212	0	40	17915	86	17664	17179	0.005006	0	51	17664	0	0	0	nan	0	0	0	-0.001794	0.000690	-0.001794	0.000690	-0.041749	0.016057
7	A	111	18255	17687	0.006276	0	40	18255	69	17879	17380	0.003970	0	51	17879	0	0	0	nan	0	0	0	0.002306	0.000764	0.002306	0.000764	0.053664	0.017779
8	U	2098	18871	18302	0.114632	0	40	18871	1494	18176	17771	0.084070	0	51	18176	0	0	0	nan	0	0	0	0.030563	0.003316	nan	nan	nan	nan
9	A	1099	19363	18717	0.058717	0	40	19363	34	18593	18006	0.001888	0	51	18593	0	0	0	nan	0	0	0	0.056828	0.001801	0.056828	0.001801	1.322473	0.041912
10	G	338	20398	19767	0.017099	0	40	20398	237	18652	18057	0.013125	0	51	18652	0	0	0	nan	0	0	0	0.003974	0.001262	0.003974	0.001262	0.092481	0.029369
11	C	128	20568	19907	0.006430	0	40	20568	110	18735	18098	0.006078	0	51	18735	0	0	0	nan	0	0	0	0.000352	0.000812	0.000352	0.000812	0.008192	0.018896
12	U	197	20859	20176	0.009764	0	40	20859	162	19033	18394	0.008807	0	51	19033	0	0	0	nan	0	0	0	0.000957	0.000981	0.000957	0.000981	0.022271	0.022829
13	C	117	20908	20164	0.005802	0	40	20908	65	19084	18401	0.003532	0	51	19084	0	0	0	nan	0	0	0	0.002270	0.000693	0.002270	0.000693	0.052826	0.016127
14	A	459	21010	20150	0.022779	0	40	21010	32	19187	18472	0.001732	0	51	19187	0	0	0	nan	0	0	0	0.021047	0.001106	0.021047	0.001106	0.489795	0.025738
15	G	332	21069	20283	0.016368	0	40	21069	176	19198	18516	0.009505	0	51	19198	0	0	0	nan	0	0	0	0.006863	0.001149	0.006863	0.001149	0.159712	0.026739
16	C	858	21224	20385	0.042090	0	40	21224	244	19335	18641	0.013089	0	51	19335	0	0	0	nan	0	0	0	0.029000	0.001663	0.029000	0.001663	0.674874	0.038701
17	U	274	21338	20459	0.013393	0	40	21338	353	19411	18666	0.018911	0	51	19411	0	0	0	na

Note: Structure_seq_analysis/MaP_combined/Eco_invivo_combined_Ala-GGC-1-1_varna_colors.txt
0.000000
0.000000
0.128505
0.850000
0.047683
0.000000
0.053664
0.000000
0.850000
0.092481
0.008192
0.022271
0.052826
0.489795
0.159712
0.674874
0.000000
0.402434
0.237230
0.850000
0.182751
0.049638
0.159131
0.682740
0.029694
0.174606
0.088385
0.067674
0.049894
0.378278
0.078611
0.324079
0.072793
0.766913
0.850000
0.850000
0.850000
0.000140
0.482511
0.054409
0.145237
0.126504
0.540318
0.097880
0.254125
0.000000
0.089270
0.053967
0.186475
0.191501
0.117731
0.309046
0.463964
0.000000
0.010239
0.147425
0.000000
0.850000
0.000000
0.000000
0.000000
0.003654
0.313560
0.000000
0.000000
0.000000
0.056643
0.530009
0.052710
0.000000
0.052594
0.005283
0.850000
0.850000
0.579158
0.000000

Note: Structure_seq_analysis/MaP_combined/Eco_invivo_combined_Arg-ACG-1-1_ribosketch_colors.txt
0.000000
0.000000
0.109797
0.049303
0.056546
0.069820
0.701589
0.000000
0.850000
0.104046
0.098793
0.000000
0.000000
0.455695
0.000000
0.593563
0.000000
0.260628
0.178747
0.650887
0.000000
0.040910
0.067022
0.215522
0.623375
0.035501
0.850000
0.054930
0.111973
0.019211
0.195191
0.139547
0.000000
0.112502
0.000000
0.850000
0.850000
0.708676
0.850000
0.138894
0.106378
0.536427
0.414381
0.718095
0.462286
0.120988
0.850000
0.000000
0.042402
0.184684
0.062173
0.104917
0.329236
0.850000
0.000000
0.009108
0.024434
0.000000
0.850000
0.007647
0.000000
0.000000
0.000000
0.055551
0.000000
0.038578
0.036589
0.283321
0.413604
0.128262
0.101994
0.848658
0.047780
0.768269
0.850000
0.834545
0.000000

Note: Structure_seq_analysis/MaP_combined/Eco_invivo_combined_Arg-CCG-1-1_ribosketch_colors.txt
0.000000
0.000000
0.850000
0.000000
0.020973
0.008299
0.453977
0.000000
0.850000
0.138702
0.235759
0.000000
0.000000
0.708106
0.001471
0.521536
0.000000
0.144888
0.175555
0.699053
0.000000
0.006337
0.063674
0.052470
0.850000
0.016522
0.573743
0.159675
0.000000
0.184043
0.261409
0.000000
0.850000
0.265596
0.510710
0.000000
0.767706
0.000000
0.116899
0.584833
0.850000
0.016371
0.229686
0.850000
0.245038
0.320934
0.000000
0.000000
0.062014
0.051641
0.018483
0.151980
0.467519
0.638925
0.000000
0.000000
0.039872
0.026065
0.850000
0.000000
0.000000
0.000000
0.022708
0.115729
0.739000
0.000000
0.000000
0.421160
0.382080
0.850000
0.016258
0.850000
0.142059
0.602864
0.491284
0.449036
0.000000

Note: Structure_seq_analysis/MaP_combined/Eco_invivo_combined_Arg-TCT-1-1_varna_colors.txt
0.000000
0.000000
0.632072
0.093551
0.000000
0.059632
0.019151
0.000000
0.643369
0.309621
0.152591
0.011109
0.036742
0.405539
0.187532
0.000000
0.000000
0.223871
0.100275
0.764517
0.000000
0.063721
0.134731
0.264621
0.850000
0.000000
0.850000
0.223709
0.103799
0.602485
0.000000
0.000000
0.000000
0.067352
0.000000
0.226157
0.007935
0.163754
0.850000
0.850000
0.036716
0.000000
0.850000
0.000000
0.272502
0.435395
0.850000
0.754000
0.000000
0.349376
0.000619
0.000000
0.057158
0.439080
0.000000
0.033380
0.115499
0.044462
0.850000
0.168085
0.000000
0.000000
0.006321
0.000000
0.382971
0.000000
0.139169
0.000000
0.315189
0.850000
0.081958
0.850000
0.165260
0.850000
0.500138
0.311369
0.000000

Note: Structure_seq_analysis/MaP_combined/Eco_invivo_combined_Asn-GTT-1-1_varna_colors.txt
0.000000
0.000000
0.069835
0.072847
0.071011
0.054463
0.850000
0.000000
0.850000
0.165712
0.000000
0.000000
0.037083
0.652982
0.181859
0.000000
0.821448
0.461458
0.556159
0.000000
0.063210
0.116039
0.215041
0.168982
0.037169
0.850000
0.143543
0.032150
0.214755
0.564104
0.152060
0.850000
0.032207
0.000000
0.008432
0.008145
0.000000
0.850000
0.000000
0.000000
0.027647
0.850000
0.000000
0.231848
0.038144
0.000000
0.000000
0.050935
0.161324
0.026959
0.020076
0.049215
0.446746
0.000000
0.034531
0.105915
0.000000
0.850000
0.000000
0.000000
0.000000
0.009665
0.000000
0.433639
0.114547
0.008489
0.037456
0.850000
0.176926
0.850000
0.850000
0.196916
0.850000
0.850000
0.533617
0.000000

Note: Structure_seq_analysis/MaP_combined/Eco_invivo_combined_Gly-CCC-1-1_varna_colors.txt
0.000000
0.000000
0.427038
0.304585
0.850000
0.098606
0.686597
0.000000
0.110780
0.165741
0.010649
0.000000
0.000000
0.039523
0.143776
0.025182
0.298820
0.428968
0.000000
0.000000
0.101346
0.136748
0.096724
0.000000
0.402643
0.239809
0.267039
0.155711
0.850000
0.026825
0.000000
0.013032
0.850000
0.850000
0.850000
0.850000
0.358951
0.850000
0.036498
0.067516
0.071471
0.020822
0.061894
0.000000
0.013508
0.080166
0.522786
0.104467
0.202620
0.178582
0.307182
0.000000
0.116045
0.076259
0.000000
0.850000
0.000000
0.000000
0.000000
0.000000
0.019654
0.081310
0.000000
0.191089
0.691028
0.085694
0.124502
0.114806
0.850000
0.010697
0.000000
0.690766
0.407146
0.000000

Note: README.md
# tRNA_structure-seq

Research articles: 
  (1) R. Y amagami, J.P . Sieg, S.M. Assmann, and P .C. Bevilacqua*. “Genome-wide analysis of the in vivo tRNA structurome reveals RNA structural andd modification dynamics under heat stress”, Proc. Natl. Acad. Sci. U.S.A., 119: 22201237119, (2022)
  
  (2) manuscript in review.

Method article: manuscript in preparation.

File: Eco_invivo_combined_Ser-TGA-1-1_ribosketch_colors.txt
0.000000
0.000000
0.111321
0.137655
0.850000
0.040028
0.314333
0.000000
0.177970
0.850000
0.129947
0.162314
0.287305
0.468315
0.568720
0.850000
0.244955
0.247804
0.000000
0.000000
0.431591
0.346532
0.850000
0.055900
0.600584
0.000000
0.850000
0.000000
0.000000
0.430107
0.754207
0.000000
0.358837
0.000000
0.850000
0.306289
0.114074
0.000000
0.850000
0.014795
0.033612
0.000000
0.418568
0.599555
0.850000
0.209859
0.850000
0.000000
0.000000
0.000048
0.361423
0.850000
0.850000
0.850000
0.489095
0.395609
0.850000
0.000000
0.000000
0.075627
0.069115
0.278136
0.237342
0.232554
0.850000
0.000000
0.027292
0.033157
0.020565
0.850000
0.075842
0.000000
0.000000
0.000000
0.014771
0.011659
0.355414
0.115343
0.585837
0.152115
0.044529
0.000000
0.056235
0.000000
0.850000
0.850000
0.850000
0.000000