Folder: tRNA_structure-seq/Structure_seq_analysis/Shapemapper_out

Note: Structure_seq_analysis/Shapemapper_out/Eco_invivo_combined_Ala-TGC-1-1_profile.txt
Nucleotide	Sequence	Modified_mutations	Modified_read_depth	Modified_effective_depth	Modified_rate	Modified_off_target_mapped_depth	Modified_low_mapq_mapped_depth	Modified_mapped_depth	Untreated_mutations	Untreated_read_depth	Untreated_effective_depth	Untreated_rate	Untreated_off_target_mapped_depth	Untreated_low_mapq_mapped_depth	Untreated_mapped_depth	Denatured_mutations	Denatured_read_depth	Denatured_effective_depth	Denatured_rate	Denatured_off_target_mapped_depth	Denatured_low_mapq_mapped_depth	Denatured_mapped_depth	Reactivity_profile	Std_err	HQ_profile	HQ_stderr	Norm_profile	Norm_stderr
1	G	0	49935	47683	0.000000	0	53	49935	0	53616	51218	0.000000	0	116	53616	0	0	0	nan	0	0	0	0.000000	0.000000	0.000000	0.000000	0.000000	0.000000
2	G	0	52350	48857	0.000000	0	55	52350	0	54939	51239	0.000000	0	119	54939	0	0	0	nan	0	0	0	0.000000	0.000000	0.000000	0.000000	0.000000	0.000000
3	G	758	53567	49719	0.015246	0	56	53567	416	55519	51594	0.008063	0	122	55519	0	0	0	nan	0	0	0	0.007183	0.000680	0.007183	0.000680	0.159095	0.015061
4	G	2814	53730	50439	0.055790	0	57	53730	450	55573	52244	0.008613	0	122	55573	0	0	0	nan	0	0	0	0.047177	0.001127	0.047177	0.001127	1.044915	0.024962
5	C	619	54178	51628	0.011990	0	57	54178	513	55702	53133	0.009655	0	122	55702	0	0	0	nan	0	0	0	0.002335	0.000643	0.002335	0.000643	0.051717	0.014242
6	U	291	55389	53892	0.005400	0	58	55389	223	56579	55084	0.004048	0	123	56579	0	0	0	nan	0	0	0	0.001351	0.000417	0.001351	0.000417	0.029923	0.009236
7	A	268	56895	55282	0.004848	0	58	56895	137	57658	55998	0.002447	0	125	57658	0	0	0	nan	0	0	0	0.002401	0.000362	0.002401	0.000362	0.053179	0.008018
8	U	12975	59213	57251	0.226634	0	61	59213	8642	59104	57724	0.149712	0	129	59104	0	0	0	nan	0	0	0	0.076921	0.002560	nan	nan	nan	nan
9	A	3372	62249	60221	0.055994	0	61	62249	123	61441	59526	0.002066	0	132	61441	0	0	0	nan	0	0	0	0.053927	0.000982	0.053927	0.000982	1.194419	0.021750
10	G	979	66111	64081	0.015278	0	61	66111	762	61678	59831	0.012736	0	132	61678	0	0	0	nan	0	0	0	0.002542	0.000672	0.002542	0.000672	0.056302	0.014884
11	C	436	66712	64597	0.006750	0	61	66712	355	62015	60048	0.005912	0	132	62015	0	0	0	nan	0	0	0	0.000838	0.000450	0.000838	0.000450	0.018561	0.009967
12	U	609	67981	65769	0.009260	0	61	67981	558	63208	61179	0.009121	0	132	63208	0	0	0	nan	0	0	0	0.000139	0.000538	0.000139	0.000538	0.003079	0.011916
13	C	339	68205	65765	0.005155	0	61	68205	192	63385	61198	0.003137	0	132	63385	0	0	0	nan	0	0	0	0.002017	0.000360	0.002017	0.000360	0.044674	0.007974
14	A	1212	68520	65781	0.018425	0	61	68520	92	63737	61382	0.001499	0	132	63737	0	0	0	nan	0	0	0	0.016926	0.000552	0.016926	0.000552	0.374891	0.012226
15	G	1067	68693	66126	0.016136	0	61	68693	569	63772	61554	0.009244	0	133	63772	0	0	0	nan	0	0	0	0.006892	0.000628	0.006892	0.000628	0.152650	0.013909
16	C	2897	69211	66514	0.043555	0	61	69211	743	64182	61910	0.012001	0	133	64182	0	0	0	nan	0	0	0	0.031553	0.000921	0.031553	0.000921	0.698862	0.020399
17	U	1004	69698	66781	0.015034	0	61	69698	1171	64482	62024	0.01

Note: Structure_seq_analysis/Shapemapper_out/Eco_invivo_combined_Ala-TGC-1-1_varna_colors.txt
0.000000
0.000000
0.159095
0.850000
0.051717
0.029923
0.053179
0.000000
0.850000
0.056302
0.018561
0.003079
0.044674
0.374891
0.152650
0.698862
0.000000
0.285698
0.207202
0.850000
0.135484
0.069459
0.159427
0.702605
0.044586
0.131608
0.037852
0.000000
0.020222
0.467849
0.032670
0.000000
0.000000
0.515336
0.850000
0.850000
0.850000
0.850000
0.403308
0.050787
0.097211
0.238055
0.544949
0.125960
0.146647
0.000000
0.025183
0.058074
0.009280
0.111829
0.052116
0.277879
0.419565
0.000000
0.000000
0.071231
0.000000
0.850000
0.000000
0.008018
0.000000
0.000000
0.167689
0.021329
0.013267
0.022747
0.034818
0.467849
0.059514
0.000000
0.054575
0.000000
0.850000
0.850000
0.850000
0.000000

Note: Structure_seq_analysis/Shapemapper_out/Eco_invivo_combined_Arg-ACG-1-1_profile.txt
Nucleotide	Sequence	Modified_mutations	Modified_read_depth	Modified_effective_depth	Modified_rate	Modified_off_target_mapped_depth	Modified_low_mapq_mapped_depth	Modified_mapped_depth	Untreated_mutations	Untreated_read_depth	Untreated_effective_depth	Untreated_rate	Untreated_off_target_mapped_depth	Untreated_low_mapq_mapped_depth	Untreated_mapped_depth	Denatured_mutations	Denatured_read_depth	Denatured_effective_depth	Denatured_rate	Denatured_off_target_mapped_depth	Denatured_low_mapq_mapped_depth	Denatured_mapped_depth	Reactivity_profile	Std_err	HQ_profile	HQ_stderr	Norm_profile	Norm_stderr
1	G	0	5902	5779	0.000000	0	0	5902	0	9046	8883	0.000000	0	0	9046	0	0	0	nan	0	0	0	0.000000	0.000000	0.000000	0.000000	0.000000	0.000000
2	C	0	6290	6114	0.000000	0	0	6290	0	9279	9031	0.000000	0	0	9279	0	0	0	nan	0	0	0	0.000000	0.000000	0.000000	0.000000	0.000000	0.000000
3	A	31	6397	6244	0.004965	0	0	6397	13	9342	9075	0.001433	0	0	9342	0	0	0	nan	0	0	0	0.003532	0.000976	0.003532	0.000976	0.109797	0.030340
4	U	87	6574	6359	0.013681	0	0	6574	110	9444	9094	0.012096	0	0	9444	0	0	0	nan	0	0	0	0.001586	0.001866	0.001586	0.001866	0.049303	0.058007
5	C	64	6643	6361	0.010061	0	0	6643	75	9500	9099	0.008243	0	0	9500	0	0	0	nan	0	0	0	0.001819	0.001577	0.001819	0.001577	0.056546	0.049023
6	C	48	6935	6603	0.007269	0	0	6935	47	9784	9356	0.005024	0	0	9784	0	0	0	nan	0	0	0	0.002246	0.001280	0.002246	0.001280	0.069820	0.039791
7	G	187	7000	6631	0.028201	0	0	7000	53	9866	9410	0.005632	0	0	9866	0	0	0	nan	0	0	0	0.022569	0.002203	0.022569	0.002203	0.701589	0.068483
8	U	936	7243	6881	0.136027	0	0	7243	1138	10165	9696	0.117368	0	0	10165	0	0	0	nan	0	0	0	0.018659	0.005646	nan	nan	nan	nan
9	A	207	7421	7096	0.029171	0	0	7421	15	10466	10060	0.001491	0	0	10466	0	0	0	nan	0	0	0	0.027680	0.002064	0.027680	0.002064	0.860471	0.064162
10	G	134	7604	7284	0.018396	0	0	7604	152	10512	10100	0.015050	0	0	10512	0	0	0	nan	0	0	0	0.003347	0.002004	0.003347	0.002004	0.104046	0.062297
11	C	71	7679	7352	0.009657	0	0	7679	66	10593	10187	0.006479	0	0	10593	0	0	0	nan	0	0	0	0.003178	0.001396	0.003178	0.001396	0.098793	0.043397
12	U	61	7942	7542	0.008088	0	0	7942	92	10990	10486	0.008774	0	0	10990	0	0	0	nan	0	0	0	-0.000686	0.001382	-0.000686	0.001382	-0.021325	0.042961
13	C	31	8006	7467	0.004152	0	0	8006	64	11094	10295	0.006217	0	0	11094	0	0	0	nan	0	0	0	-0.002065	0.001077	-0.002065	0.001077	-0.064193	0.033480
14	A	124	8089	7482	0.016573	0	0	8089	20	11311	10448	0.001914	0	0	11311	0	0	0	nan	0	0	0	0.014659	0.001549	0.014659	0.001549	0.455695	0.048153
15	G	70	8106	7565	0.009253	0	0	8106	104	11325	10507	0.009898	0	0	11325	0	0	0	nan	0	0	0	-0.000645	0.001471	-0.000645	0.001471	-0.020051	0.045728
16	C	220	8161	7696	0.028586	0	0	8161	103	11473	10851	0.009492	0	0	11473	0	0	0	nan	0	0	0	0.019094	0.002142	0.019094	0.002142	0.593563	0.066587
17	U	55	8203	7725	0.007120	0	0	8203	135	11546	10862	0.012429	0	0	11546	0	0	0	nan	0	0	0	-0.005309	0.001437	-0.005309	0.001437	-0.165038	0.044671
18	G	133	8235	7735	0.017195	0	0	8235	96	11593	10896

Note: Structure_seq_analysis/Shapemapper_out/Eco_invivo_combined_Arg-CCT-1-1_ribosketch_colors.txt
0.000000
0.000000
0.237289
0.742413
0.092500
0.168416
0.000000
0.000000
0.436046
0.616501
0.000000
0.000000
0.259810
0.325898
0.112277
0.000000
0.514911
0.527072
0.850000
0.000000
0.090575
0.000000
0.096144
0.396246
0.085743
0.647252
0.336545
0.418808
0.193312
0.069569
0.007289
0.000000
0.244045
0.850000
0.850000
0.131399
0.000000
0.329174
0.222302
0.587264
0.482603
0.000000
0.000000
0.044510
0.078004
0.243963
0.051921
0.569739
0.117109
0.091722
0.252644
0.560976
0.060766
0.014700
0.297932
0.000000
0.850000
0.000000
0.000000
0.000000
0.160062
0.000000
0.566791
0.000000
0.281757
0.272421
0.486657
0.463235
0.850000
0.200314
0.055934
0.850000
0.850000
0.850000
0.000000

Note: README.md
# tRNA_structure-seq

Research articles: 
  (1) R. Y amagami, J.P . Sieg, S.M. Assmann, and P .C. Bevilacqua*. “Genome-wide analysis of the in vivo tRNA structurome reveals RNA structural andd modification dynamics under heat stress”, Proc. Natl. Acad. Sci. U.S.A., 119: 22201237119, (2022)
  
  (2) manuscript in review.

Method article: manuscript in preparation.

File: Eco_invivo_combined_Ser-TGA-1-1_profile.txt
Nucleotide	Sequence	Modified_mutations	Modified_read_depth	Modified_effective_depth	Modified_rate	Modified_off_target_mapped_depth	Modified_low_mapq_mapped_depth	Modified_mapped_depth	Untreated_mutations	Untreated_read_depth	Untreated_effective_depth	Untreated_rate	Untreated_off_target_mapped_depth	Untreated_low_mapq_mapped_depth	Untreated_mapped_depth	Denatured_mutations	Denatured_read_depth	Denatured_effective_depth	Denatured_rate	Denatured_off_target_mapped_depth	Denatured_low_mapq_mapped_depth	Denatured_mapped_depth	Reactivity_profile	Std_err	HQ_profile	HQ_stderr	Norm_profile	Norm_stderr
1	G	0	4476	4274	0.000000	0	0	4476	0	5983	5724	0.000000	0	0	5983	0	0	0	nan	0	0	0	0.000000	0.000000	0.000000	0.000000	0.000000	0.000000
3	A	29	4862	4702	0.006168	0	0	4862	9	6150	5931	0.001517	0	0	6150	0	0	0	nan	0	0	0	0.004650	0.001252	0.004650	0.001252	0.111321	0.029973
5	G	431	4916	4710	0.091507	0	0	4916	61	6165	5874	0.010385	0	0	6165	0	0	0	nan	0	0	0	0.081123	0.004604	0.081123	0.004604	1.942089	0.110220
7	G	105	5002	4705	0.022317	0	0	5002	54	6225	5878	0.009187	0	0	6225	0	0	0	nan	0	0	0	0.013130	0.002511	0.013130	0.002511	0.314333	0.060113
9	G	93	5170	4863	0.019124	0	0	5170	70	6377	5988	0.011690	0	0	6377	0	0	0	nan	0	0	0	0.007434	0.002426	0.007434	0.002426	0.177970	0.058079
11	C	82	5293	5087	0.016120	0	0	5293	66	6458	6173	0.010692	0	0	6458	0	0	0	nan	0	0	0	0.005428	0.002214	0.005428	0.002214	0.129947	0.053003
13	G	77	5369	4973	0.015484	0	0	5369	21	6546	6030	0.003483	0	0	6546	0	0	0	nan	0	0	0	0.012001	0.001921	0.012001	0.001921	0.287305	0.045989
15	G	183	5451	5052	0.036223	0	0	5451	76	6583	6096	0.012467	0	0	6583	0	0	0	nan	0	0	0	0.023756	0.003036	0.023756	0.003036	0.568720	0.072682
17	G	98	5595	5390	0.018182	0	0	5595	51	6654	6415	0.007950	0	0	6654	0	0	0	nan	0	0	0	0.010232	0.002148	0.010232	0.002148	0.244955	0.051423
19	U	149	6825	6538	0.022790	0	0	6825	246	6994	6731	0.036547	0	0	6994	0	0	0	nan	0	0	0	-0.013757	0.002986	-0.013757	0.002986	-0.329343	0.071485
21	G	176	7618	7232	0.024336	0	0	7618	45	7542	7134	0.006308	0	0	7542	0	0	0	nan	0	0	0	0.018028	0.002061	0.018028	0.002061	0.431591	0.049340
23	A	732	8024	7577	0.096608	0	0	8024	33	7638	7187	0.004592	0	0	7638	0	0	0	nan	0	0	0	0.092017	0.003659	0.092017	0.003659	2.202892	0.087597
25	G	311	8562	8141	0.038202	0	0	8562	96	7683	7320	0.013115	0	0	7683	0	0	0	nan	0	0	0	0.025087	0.002546	0.025087	0.002546	0.600584	0.060951
27	A	690	8665	8233	0.083809	0	0	8665	82	7728	7406	0.011072	0	0	7728	0	0	0	nan	0	0	0	0.072737	0.003417	0.072737	0.003417	1.741328	0.081803
29	C	70	8774	8405	0.008328	0	0	8774	81	7809	7460	0.010858	0	0	7809	0	0	0	nan	0	0	0	-0.002530	0.001564	-0.002530	0.001564	-0.060568	0.037442
31	G	348	8801	8307	0.041892	0	0	8801	77	7860	7412	0.010389	0	0	7860	0	0	0	nan	0	0	0	0.031504	0.002539	0.031504	0.002539	0.754207	0.060784
33	C	383	8882	8539	0.044853	0	0	8882	229	7991	7668	0.029864	0	0	7991	0	0	0	nan	0	0	0	0.014989	0.003024	0.014989	0.003024	0.358837	0.072395
35	U	754	9132	8694	0.086726	0	0	9132	393	8359	7978	0.049260	0	0	8359	0	0	0	nan	0	0	0	0.037466	0.004019	0.037466	0.004019	0.896938	0.096215
37	A	62	9321	8907	0.006961	0	0	9321	18	8565	8199	0.002195	0	0	8565	0	0	0	nan	0	0	0	0.004765	0.001024	0.004765	0.001024	0.114074	0.024515
39	A	401	9589	8724	0.045965	0	0	9589	13	8768	8084	0.001608	0	0	8768	0	0	0	nan	0	0	0	0.044357	0.002338	0.044357	0.002338	1.061909	0.055972
41	C	79	9801	9021	0.008757	0	0	9801	60	8790	8159	0.007354	0	0	8790	0	0	0	nan	0	0	0	0.001404	0.001368	0.001404	0.001368	0.033612	0.032750
43	G	267	9815	9191	0.029050	0	0	9815	96	8810	8300	0.011566	0	0	8810	0	0	0	nan	0	0	0	0.017484	0.002134	0.017484	0.002134	0.418568	0.051088
45	C	516	9820	9265	0.055693	0	0	9820	124	8819	8353	0.014845	0	0	8819	0	0	0	nan	0	0	0	0.040849	0.002791	0.040849	0.002791	0.977927	0.066817
47	A	419	9833	8785	0.047695	0	0	9833	72	8834	7945	0.009062	0	1	8834	0	0	0	nan	0	0	0	0.038633	0.002563	0.038633	0.002563	0.924876	0.061358
49	C	59	9836	9374	0.006294	0	0	9836	66	8840	8450	0.007811	0	1	8840	0	0	0	nan	0	0	0	-0.001517	0.001263	-0.001517	0.001263	-0.036317	0.030236
51	G	180	9837	9352	0.019247	0	0	9837	35	8837	8433	0.004150	0	1	8837	0	0	0	nan	0	0	0	0.015097	0.001597	0.015097	0.001597	0.361423	0.038232
53	A	390	9842	9592	0.040659	0	0	9842	23	8838	8626	0.002666	0	1	8838	0	0	0	nan	0	0	0	0.037993	0.002133	0.037993	0.002133	0.909554	0.051064
55	G	315	9837	9185	0.034295	0	0	9837	115	8828	8294	0.013865	0	1	8828	0	0	0	nan	0	0	0	0.020430	0.002325	0.020430	0.002325	0.489095	0.055661
57	G	408	9835	8995	0.045359	0	0	9835	71	8818	8074	0.008794	0	1	8818	0	0	0	nan	0	0	0	0.036565	0.002476	0.036565	0.002476	0.875368	0.059276
59	U	106	9851	9147	0.011588	0	0	9851	112	8829	8211	0.013640	0	2	8829	0	0	0	nan	0	0	0	-0.002052	0.001711	-0.002052	0.001711	-0.049125	0.040961
61	C	50	9889	9253	0.005404	0	0	9889	21	8842	8344	0.002517	0	2	8842	0	0	0	nan	0	0	0	0.002887	0.000941	0.002887	0.000941	0.069115	0.022528
63	G	157	9888	9513	0.016504	0	0	9888	56	8851	8498	0.006590	0	2	8851	0	0	0	nan	0	0	0	0.009914	0.001584	0.009914	0.001584	0.237342	0.037921
65	G	531	9879	9262	0.057331	0	0	9879	101	8849	8372	0.012064	0	2	8849	0	0	0	nan	0	0	0	0.045267	0.002762	0.045267	0.002762	1.083694	0.066122
67	U	180	9882	9057	0.019874	0	0	9882	153	8852	8167	0.018734	0	2	8852	0	0	0	nan	0	0	0	0.001140	0.002119	0.001140	0.002119	0.027292	0.050729
69	G	45	9875	9053	0.004971	0	0	9875	34	8847	8269	0.004112	0	2	8847	0	0	0	nan	0	0	0	0.000859	0.001023	0.000859	0.001023	0.020565	0.024491
71	A	113	9869	9156	0.012342	0	0	9869	75	8842	8176	0.009173	0	2	8842	0	0	0	nan	0	0	0	0.003168	0.001572	0.003168	0.001572	0.075842	0.037634
73	C	69	9861	9281	0.007435	0	0	9861	86	8830	8276	0.010391	0	2	8830	0	0	0	nan	0	0	0	-0.002957	0.001434	-0.002957	0.001434	-0.070791	0.034330
75	C	125	9841	8982	0.013917	0	0	9841	105	8808	7895	0.013300	0	2	8808	0	0	0	nan	0	0	0	0.000617	0.001798	0.000617	0.001798	0.014771	0.043044
77	G	229	9824	8380	0.027327	0	0	9824	91	8790	7291	0.012481	0	2	8790	0	0	0	nan	0	0	0	0.014846	0.002230	0.014846	0.002230	0.355414	0.053386
79	G	323	9816	8369	0.038595	0	0	9816	101	8782	7151	0.014124	0	2	8782	0	0	0	nan	0	0	0	0.024471	0.002566	0.024471	0.002566	0.585837	0.061430
81	U	121	9807	8988	0.013462	0	0	9807	94	8781	8102	0.011602	0	2	8781	0	0	0	nan	0	0	0	0.001860	0.001712	0.001860	0.001712	0.044529	0.040985
83	C	111	9794	8919	0.012445	0	0	9794	81	8776	8023	0.010096	0	2	8776	0	0	0	nan	0	0	0	0.002349	0.001629	0.002349	0.001629	0.056235	0.038998
85	G	574	9755	8634	0.066481	0	0	9755	165	8758	7868	0.020971	0	2	8758	0	0	0	nan	0	0	0	0.045510	0.003220	0.045510	0.003220	1.089512	0.077087
87	C	448	9720	8530	0.052521	0	0	9720	11	8752	7958	0.001382	0	2	8752	0	0	0	nan	0	0	0	0.051138	0.002516	0.051138	0.002516	1.224246	0.060233
88	A	0	9378	0	nan	0	0	9378	0	8634	0	nan	0	2	8634	0	0	0	nan	0	0	0	nan	nan	nan	nan	nan	nan