Folder: tRNA_structure-seq/MaP_analysis/MaP_data_rep1

Note: MaP_analysis/MaP_data_rep1/Eco_invivo_rep1_Ala-GGC-1-1_profile.txt
Nucleotide	Sequence	Modified_mutations	Modified_read_depth	Modified_effective_depth	Modified_rate	Modified_off_target_mapped_depth	Modified_low_mapq_mapped_depth	Modified_mapped_depth	Untreated_mutations	Untreated_read_depth	Untreated_effective_depth	Untreated_rate	Untreated_off_target_mapped_depth	Untreated_low_mapq_mapped_depth	Untreated_mapped_depth	Denatured_mutations	Denatured_read_depth	Denatured_effective_depth	Denatured_rate	Denatured_off_target_mapped_depth	Denatured_low_mapq_mapped_depth	Denatured_mapped_depth	Reactivity_profile	Std_err	HQ_profile	HQ_stderr	Norm_profile	Norm_stderr
1	G	0	7500	7134	0.000000	0	14	7500	0	7623	7241	0.000000	0	20	7623	0	0	0	nan	0	0	0	0.000000	0.000000	0.000000	0.000000	0.000000	0.000000
2	G	0	7899	7341	0.000000	0	16	7899	0	7797	7197	0.000000	0	20	7797	0	0	0	nan	0	0	0	0.000000	0.000000	0.000000	0.000000	0.000000	0.000000
3	G	97	8113	7531	0.012880	0	17	8113	63	7869	7226	0.008719	0	20	7869	0	0	0	nan	0	0	0	0.004162	0.001708	0.004162	0.001708	0.097283	0.039923
4	G	488	8140	7638	0.063891	0	18	8140	67	7879	7328	0.009143	0	21	7879	0	0	0	nan	0	0	0	0.054748	0.003100	0.054748	0.003100	1.279680	0.072459
5	C	103	8198	7813	0.013183	0	18	8198	79	7895	7509	0.010521	0	21	7895	0	0	0	nan	0	0	0	0.002662	0.001757	0.002662	0.001757	0.062222	0.041068
6	U	25	8371	8133	0.003074	0	18	8371	35	7960	7763	0.004509	0	22	7960	0	0	0	nan	0	0	0	-0.001435	0.000979	-0.001435	0.000979	-0.033542	0.022883
7	A	43	8538	8278	0.005194	0	18	8538	30	8061	7851	0.003821	0	22	8061	0	0	0	nan	0	0	0	0.001373	0.001056	0.001373	0.001056	0.032093	0.024683
8	U	995	8888	8619	0.115443	0	18	8888	581	8194	8030	0.072354	0	22	8194	0	0	0	nan	0	0	0	0.043089	0.004733	nan	nan	nan	nan
9	A	500	9142	8841	0.056555	0	18	9142	15	8345	8106	0.001850	0	22	8345	0	0	0	nan	0	0	0	0.054704	0.002574	0.054704	0.002574	1.278652	0.060165
10	G	180	9773	9456	0.019036	0	18	9773	108	8368	8130	0.013284	0	22	8368	0	0	0	nan	0	0	0	0.005751	0.001910	0.005751	0.001910	0.134424	0.044644
11	C	65	9874	9550	0.006806	0	18	9874	50	8400	8126	0.006153	0	22	8400	0	0	0	nan	0	0	0	0.000653	0.001212	0.000653	0.001212	0.015263	0.028329
12	U	109	9970	9623	0.011327	0	18	9970	76	8554	8269	0.009191	0	22	8554	0	0	0	nan	0	0	0	0.002136	0.001513	0.002136	0.001513	0.049927	0.035365
13	C	73	9994	9612	0.007595	0	18	9994	32	8580	8267	0.003871	0	22	8580	0	0	0	nan	0	0	0	0.003724	0.001122	0.003724	0.001122	0.087045	0.026226
14	A	216	10050	9612	0.022472	0	18	10050	11	8621	8300	0.001325	0	22	8621	0	0	0	nan	0	0	0	0.021147	0.001580	0.021147	0.001580	0.494290	0.036931
15	G	171	10094	9687	0.017653	0	18	10094	77	8625	8325	0.009249	0	22	8625	0	0	0	nan	0	0	0	0.008403	0.001713	0.008403	0.001713	0.196412	0.040040
16	C	435	10198	9767	0.044538	0	18	10198	110	8689	8381	0.013125	0	22	8689	0	0	0	nan	0	0	0	0.031413	0.002475	0.031413	0.002475	0.734248	0.057851
17	U	130	10272	9823	0.013234	0	18	10272	162	8726	8397	0.019293	0	22	8726	0	0	0	nan	0	0	0	-0.006058	0.001909	-0.006058	0.001909	-0.141600	0.044621
18	G	259	10316	9810	0.026402	0	18	10316	71	

Note: MaP_analysis/MaP_data_rep1/Eco_invivo_rep1_Ala-GGC-1-1_varna_colors.txt
0.000000
0.000000
0.097283
0.850000
0.062222
0.000000
0.032093
0.000000
0.850000
0.134424
0.015263
0.049927
0.087045
0.494290
0.196412
0.734248
0.000000
0.419493
0.201741
0.850000
0.263635
0.052708
0.165698
0.754653
0.049787
0.202980
0.110466
0.043429
0.076293
0.346800
0.088821
0.351685
0.075147
0.850000
0.850000
0.850000
0.850000
0.037819
0.452614
0.071197
0.130707
0.149290
0.558802
0.123578
0.298556
0.000000
0.099363
0.065611
0.201157
0.256436
0.071291
0.367019
0.513317
0.000000
0.000000
0.163221
0.000000
0.850000
0.000000
0.012645
0.000000
0.009724
0.380061
0.000000
0.000000
0.000000
0.096231
0.602021
0.082347
0.000000
0.095553
0.000000
0.850000
0.850000
0.589492
0.000000

Note: MaP_analysis/MaP_data_rep1/Eco_invivo_rep1_Ala-TGC-1-1_profile.txt
Nucleotide	Sequence	Modified_mutations	Modified_read_depth	Modified_effective_depth	Modified_rate	Modified_off_target_mapped_depth	Modified_low_mapq_mapped_depth	Modified_mapped_depth	Untreated_mutations	Untreated_read_depth	Untreated_effective_depth	Untreated_rate	Untreated_off_target_mapped_depth	Untreated_low_mapq_mapped_depth	Untreated_mapped_depth	Denatured_mutations	Denatured_read_depth	Denatured_effective_depth	Denatured_rate	Denatured_off_target_mapped_depth	Denatured_low_mapq_mapped_depth	Denatured_mapped_depth	Reactivity_profile	Std_err	HQ_profile	HQ_stderr	Norm_profile	Norm_stderr
1	G	0	22511	21470	0.000000	0	20	22511	0	25401	24277	0.000000	0	53	25401	0	0	0	nan	0	0	0	0.000000	0.000000	0.000000	0.000000	0.000000	0.000000
2	G	0	23658	22018	0.000000	0	22	23658	0	26016	24309	0.000000	0	54	26016	0	0	0	nan	0	0	0	0.000000	0.000000	0.000000	0.000000	0.000000	0.000000
3	G	395	24274	22475	0.017575	0	22	24274	211	26277	24491	0.008615	0	55	26277	0	0	0	nan	0	0	0	0.008960	0.001065	0.008960	0.001065	0.196005	0.023297
4	G	1364	24370	22841	0.059717	0	22	24370	207	26307	24783	0.008352	0	55	26307	0	0	0	nan	0	0	0	0.051365	0.001718	0.051365	0.001718	1.123637	0.037582
5	C	316	24621	23457	0.013471	0	22	24621	243	26368	25195	0.009645	0	55	26368	0	0	0	nan	0	0	0	0.003827	0.000978	0.003827	0.000978	0.083718	0.021394
6	U	143	25232	24540	0.005827	0	23	25232	96	26766	26091	0.003679	0	55	26766	0	0	0	nan	0	0	0	0.002148	0.000615	0.002148	0.000615	0.046989	0.013453
7	A	126	25935	25191	0.005002	0	23	25935	50	27285	26522	0.001885	0	56	27285	0	0	0	nan	0	0	0	0.003117	0.000519	0.003117	0.000519	0.068186	0.011353
8	U	6080	27204	26305	0.231135	0	25	27204	3943	27920	27278	0.144549	0	58	27920	0	0	0	nan	0	0	0	0.086586	0.003753	nan	nan	nan	nan
9	A	1537	28691	27719	0.055449	0	25	28691	58	29054	28172	0.002059	0	60	29054	0	0	0	nan	0	0	0	0.053391	0.001440	0.053391	0.001440	1.167957	0.031501
10	G	471	30930	29934	0.015735	0	25	30930	355	29159	28336	0.012528	0	60	29159	0	0	0	nan	0	0	0	0.003206	0.000984	0.003206	0.000984	0.070133	0.021526
11	C	219	31220	30186	0.007255	0	25	31220	185	29318	28474	0.006497	0	60	29318	0	0	0	nan	0	0	0	0.000758	0.000684	0.000758	0.000684	0.016582	0.014963
12	U	267	31587	30520	0.008748	0	25	31587	251	29994	29106	0.008624	0	60	29994	0	0	0	nan	0	0	0	0.000125	0.000763	0.000125	0.000763	0.002734	0.016691
13	C	163	31688	30556	0.005334	0	25	31688	101	30078	29110	0.003470	0	60	30078	0	0	0	nan	0	0	0	0.001865	0.000542	0.001865	0.000542	0.040798	0.011857
14	A	559	31843	30574	0.018284	0	25	31843	48	30252	29172	0.001645	0	60	30252	0	0	0	nan	0	0	0	0.016638	0.000809	0.016638	0.000809	0.363965	0.017697
15	G	541	31962	30749	0.017594	0	25	31962	287	30267	29243	0.009814	0	60	30267	0	0	0	nan	0	0	0	0.007780	0.000953	0.007780	0.000953	0.170192	0.020847
16	C	1341	32309	31005	0.043251	0	25	32309	376	30467	29415	0.012783	0	60	30467	0	0	0	nan	0	0	0	0.030468	0.001353	0.030468	0.001353	0.666504	0.029598
17	U	487	32619	31200	0.015609	0	25	32619	582	30615	29479	0.019743	0	60	30615	0	0	0	na

Note: MaP_analysis/MaP_data_rep1/Eco_invivo_rep1_Ala-TGC-1-1_varna_colors.txt
0.000000
0.000000
0.196005
0.850000
0.083718
0.046989
0.068186
0.000000
0.850000
0.070133
0.016582
0.002734
0.040798
0.363965
0.170192
0.666504
0.000000
0.319952
0.233303
0.850000
0.170257
0.076455
0.161201
0.775860
0.045851
0.193030
0.028635
0.021351
0.014088
0.431736
0.028023
0.033010
0.000000
0.613040
0.850000
0.850000
0.850000
0.850000
0.409773
0.065277
0.097674
0.272219
0.557301
0.151182
0.174064
0.000000
0.032638
0.059283
0.001619
0.119353
0.081071
0.310086
0.469799
0.000000
0.000000
0.073239
0.000000
0.850000
0.000000
0.012907
0.000000
0.000000
0.271629
0.037429
0.046967
0.018397
0.024435
0.503969
0.081640
0.000000
0.067639
0.000000
0.850000
0.850000
0.850000
0.000000

Note: README.md
# tRNA_structure-seq

Research articles: 
  (1) R. Y amagami, J.P . Sieg, S.M. Assmann, and P .C. Bevilacqua*. “Genome-wide analysis of the in vivo tRNA structurome reveals RNA structural andd modification dynamics under heat stress”, Proc. Natl. Acad. Sci. U.S.A., 119: 22201237119, (2022)
  
  (2) manuscript in review.

Method article: manuscript in preparation.

File: Eco_invivo_rep1_Ser-TGA-1-1_profile.txt
Nucleotide	Sequence	Modified_mutations	Modified_read_depth	Modified_effective_depth	Modified_rate	Modified_off_target_mapped_depth	Modified_low_mapq_mapped_depth	Modified_mapped_depth	Untreated_mutations	Untreated_read_depth	Untreated_effective_depth	Untreated_rate	Untreated_off_target_mapped_depth	Untreated_low_mapq_mapped_depth	Untreated_mapped_depth	Denatured_mutations	Denatured_read_depth	Denatured_effective_depth	Denatured_rate	Denatured_off_target_mapped_depth	Denatured_low_mapq_mapped_depth	Denatured_mapped_depth	Reactivity_profile	Std_err	HQ_profile	HQ_stderr	Norm_profile	Norm_stderr
1	G	0	2074	1986	0.000000	0	0	2074	0	3177	3045	0.000000	0	0	3177	0	0	0	nan	0	0	0	0.000000	0.000000	0.000000	0.000000	0.000000	0.000000
3	A	14	2269	2198	0.006369	0	0	2269	4	3270	3154	0.001268	0	0	3270	0	0	0	nan	0	0	0	0.005101	0.001817	0.005101	0.001817	0.114668	0.040845
5	G	191	2295	2194	0.087056	0	0	2295	31	3276	3124	0.009923	0	0	3276	0	0	0	nan	0	0	0	0.077132	0.006546	0.077132	0.006546	1.733888	0.147151
7	G	50	2343	2201	0.022717	0	0	2343	27	3310	3120	0.008654	0	0	3310	0	0	0	nan	0	0	0	0.014063	0.003619	0.014063	0.003619	0.316129	0.081353
9	G	43	2436	2284	0.018827	0	0	2436	44	3377	3162	0.013915	0	0	3377	0	0	0	nan	0	0	0	0.004911	0.003556	0.004911	0.003556	0.110397	0.079937
11	C	42	2499	2404	0.017471	0	0	2499	31	3425	3274	0.009469	0	0	3425	0	0	0	nan	0	0	0	0.008002	0.003187	0.008002	0.003187	0.179881	0.071642
13	G	47	2541	2367	0.019856	0	0	2541	11	3466	3189	0.003449	0	0	3466	0	0	0	nan	0	0	0	0.016407	0.003077	0.016407	0.003077	0.368821	0.069169
15	G	99	2589	2409	0.041096	0	0	2589	39	3487	3224	0.012097	0	0	3487	0	0	0	nan	0	0	0	0.028999	0.004562	0.028999	0.004562	0.651883	0.102551
17	G	45	2658	2561	0.017571	0	0	2658	28	3522	3402	0.008230	0	0	3522	0	0	0	nan	0	0	0	0.009341	0.003046	0.009341	0.003046	0.209981	0.068473
19	U	84	3396	3256	0.025799	0	0	3396	145	3691	3554	0.040799	0	0	3691	0	0	0	nan	0	0	0	-0.015001	0.004405	-0.015001	0.004405	-0.337215	0.099022
21	G	102	3883	3699	0.027575	0	0	3883	22	3965	3736	0.005889	0	0	3965	0	0	0	nan	0	0	0	0.021686	0.003005	0.021686	0.003005	0.487490	0.067551
23	A	407	4145	3929	0.103589	0	0	4145	14	4015	3773	0.003711	0	0	4015	0	0	0	nan	0	0	0	0.099878	0.005230	0.099878	0.005230	2.245206	0.117568
25	G	158	4476	4245	0.037220	0	0	4476	48	4041	3850	0.012468	0	0	4041	0	0	0	nan	0	0	0	0.024753	0.003465	0.024753	0.003465	0.556435	0.077891
27	A	329	4531	4289	0.076708	0	0	4531	38	4065	3895	0.009756	0	0	4065	0	0	0	nan	0	0	0	0.066952	0.004515	0.066952	0.004515	1.505047	0.101495
29	C	29	4607	4414	0.006570	0	0	4607	42	4108	3921	0.010712	0	0	4108	0	0	0	nan	0	0	0	-0.004142	0.002054	-0.004142	0.002054	-0.093110	0.046173
31	G	177	4622	4351	0.040680	0	0	4622	41	4137	3912	0.010481	0	0	4137	0	0	0	nan	0	0	0	0.030200	0.003468	0.030200	0.003468	0.678881	0.077959
33	C	199	4653	4476	0.044459	0	0	4653	134	4206	4047	0.033111	0	0	4206	0	0	0	nan	0	0	0	0.011348	0.004256	0.011348	0.004256	0.255097	0.095673
35	U	391	4750	4518	0.086543	0	0	4750	211	4385	4186	0.050406	0	0	4385	0	0	0	nan	0	0	0	0.036137	0.005585	nan	nan	nan	nan
37	A	36	4823	4618	0.007796	0	0	4823	10	4483	4305	0.002323	0	0	4483	0	0	0	nan	0	0	0	0.005473	0.001493	0.005473	0.001493	0.123030	0.033562
39	A	214	4922	4468	0.047896	0	0	4922	7	4567	4217	0.001660	0	0	4567	0	0	0	nan	0	0	0	0.046236	0.003334	0.046236	0.003334	1.039362	0.074947
41	C	42	5042	4622	0.009087	0	0	5042	32	4576	4254	0.007522	0	0	4576	0	0	0	nan	0	0	0	0.001565	0.001932	0.001565	0.001932	0.035180	0.043430
43	G	154	5045	4720	0.032627	0	0	5045	48	4586	4323	0.011103	0	0	4586	0	0	0	nan	0	0	0	0.021524	0.003079	0.021524	0.003079	0.483848	0.069214
45	C	263	5047	4749	0.055380	0	0	5047	53	4592	4354	0.012173	0	0	4592	0	0	0	nan	0	0	0	0.043207	0.003802	0.043207	0.003802	0.971271	0.085467
47	A	217	5051	4498	0.048244	0	0	5051	34	4598	4135	0.008222	0	0	4598	0	0	0	nan	0	0	0	0.040021	0.003566	0.040021	0.003566	0.899652	0.080162
49	C	28	5053	4799	0.005835	0	0	5053	39	4598	4391	0.008882	0	0	4598	0	0	0	nan	0	0	0	-0.003047	0.001800	-0.003047	0.001800	-0.068495	0.040463
51	G	95	5054	4802	0.019783	0	0	5054	15	4597	4395	0.003413	0	0	4597	0	0	0	nan	0	0	0	0.016370	0.002213	0.016370	0.002213	0.367989	0.049747
53	A	201	5056	4920	0.040854	0	0	5056	7	4597	4494	0.001558	0	0	4597	0	0	0	nan	0	0	0	0.039296	0.002941	0.039296	0.002941	0.883354	0.066112
55	G	158	5057	4707	0.033567	0	0	5057	56	4592	4338	0.012909	0	0	4592	0	0	0	nan	0	0	0	0.020658	0.003179	0.020658	0.003179	0.464381	0.071462
57	G	212	5056	4619	0.045897	0	0	5056	36	4588	4227	0.008517	0	0	4588	0	0	0	nan	0	0	0	0.037381	0.003457	0.037381	0.003457	0.840306	0.077712
59	U	56	5061	4690	0.011940	0	0	5061	54	4590	4267	0.012655	0	1	4590	0	0	0	nan	0	0	0	-0.000715	0.002348	-0.000715	0.002348	-0.016073	0.052782
61	C	28	5065	4722	0.005930	0	0	5065	16	4592	4340	0.003687	0	1	4592	0	0	0	nan	0	0	0	0.002243	0.001451	0.002243	0.001451	0.050421	0.032618
63	G	94	5063	4867	0.019314	0	0	5063	33	4594	4408	0.007486	0	1	4594	0	0	0	nan	0	0	0	0.011827	0.002380	0.011827	0.002380	0.265865	0.053501
65	G	315	5060	4735	0.066526	0	0	5060	51	4591	4344	0.011740	0	1	4591	0	0	0	nan	0	0	0	0.054786	0.004093	0.054786	0.004093	1.231561	0.092009
67	U	97	5063	4626	0.020968	0	0	5063	74	4590	4229	0.017498	0	1	4590	0	0	0	nan	0	0	0	0.003470	0.002945	0.003470	0.002945	0.078004	0.066202
69	G	27	5059	4613	0.005853	0	0	5059	18	4585	4256	0.004229	0	1	4585	0	0	0	nan	0	0	0	0.001624	0.001504	0.001624	0.001504	0.036507	0.033809
71	A	51	5055	4698	0.010856	0	0	5055	31	4582	4220	0.007346	0	1	4582	0	0	0	nan	0	0	0	0.003510	0.002013	0.003510	0.002013	0.078903	0.045251
73	C	36	5049	4751	0.007577	0	0	5049	50	4577	4293	0.011647	0	1	4577	0	0	0	nan	0	0	0	-0.004070	0.002076	-0.004070	0.002076	-0.091492	0.046667
75	C	60	5040	4624	0.012976	0	0	5040	51	4563	4083	0.012491	0	1	4563	0	0	0	nan	0	0	0	0.000485	0.002422	0.000485	0.002422	0.010903	0.054445
77	G	127	5029	4306	0.029494	0	0	5029	46	4557	3779	0.012173	0	1	4557	0	0	0	nan	0	0	0	0.017321	0.003173	0.017321	0.003173	0.389367	0.071327
79	G	192	5025	4295	0.044703	0	0	5025	53	4555	3714	0.014270	0	1	4555	0	0	0	nan	0	0	0	0.030433	0.003775	0.030433	0.003775	0.684118	0.084860
81	U	61	5020	4579	0.013322	0	0	5020	47	4554	4212	0.011159	0	1	4554	0	0	0	nan	0	0	0	0.002163	0.002358	0.002163	0.002358	0.048623	0.053007
83	C	60	5013	4545	0.013201	0	0	5013	31	4551	4175	0.007425	0	1	4551	0	0	0	nan	0	0	0	0.005776	0.002164	0.005776	0.002164	0.129842	0.048646
85	G	309	4998	4400	0.070227	0	0	4998	79	4546	4107	0.019235	0	1	4546	0	0	0	nan	0	0	0	0.050992	0.004544	0.050992	0.004544	1.146274	0.102147
87	C	240	4983	4333	0.055389	0	0	4983	4	4544	4126	0.000969	0	1	4544	0	0	0	nan	0	0	0	0.054419	0.003608	0.054419	0.003608	1.223311	0.081106
88	A	0	4796	0	nan	0	0	4796	0	4485	0	nan	0	1	4485	0	0	0	nan	0	0	0	nan	nan	nan	nan	nan	nan

File: Eco_invivo_rep1_Ser-TGA-1-1_varna_colors.txt
0.000000
0.000000
0.114668
0.162841
0.850000
0.187299
0.316129
0.000000
0.110397
0.850000
0.179881
0.151444
0.368821
0.421670
0.651883
0.850000
0.209981
0.285579
0.000000
0.000000
0.487490
0.392267
0.850000
0.066966
0.556435
0.000000
0.850000
0.000000
0.000000
0.446757
0.678881
0.000000
0.255097
0.000000
0.000000
0.272946
0.123030
0.000000
0.850000
0.016882
0.035180
0.000000
0.483848
0.558188
0.850000
0.269911
0.850000
0.000000
0.000000
0.000000
0.367989
0.790176
0.850000
0.797932
0.464381
0.410610
0.840306
0.069664
0.000000
0.039452
0.050421
0.279240
0.265865
0.206969
0.850000
0.000000
0.078004
0.072834
0.036507
0.850000
0.078903
0.000000
0.000000
0.000000
0.010903
0.015421
0.389367
0.139058
0.684118
0.196201
0.048623
0.019242
0.129842
0.000000
0.850000
0.850000
0.850000
0.000000