Folder: tRNA_structure-seq/MaP_analysis/MaP_data_rep2

Note: MaP_analysis/MaP_data_rep2/Eco_invivo_rep2_Ala-GGC-1-1_profile.txt
Nucleotide	Sequence	Modified_mutations	Modified_read_depth	Modified_effective_depth	Modified_rate	Modified_off_target_mapped_depth	Modified_low_mapq_mapped_depth	Modified_mapped_depth	Untreated_mutations	Untreated_read_depth	Untreated_effective_depth	Untreated_rate	Untreated_off_target_mapped_depth	Untreated_low_mapq_mapped_depth	Untreated_mapped_depth	Denatured_mutations	Denatured_read_depth	Denatured_effective_depth	Denatured_rate	Denatured_off_target_mapped_depth	Denatured_low_mapq_mapped_depth	Denatured_mapped_depth	Reactivity_profile	Std_err	HQ_profile	HQ_stderr	Norm_profile	Norm_stderr
1	G	0	8757	8350	0.000000	0	21	8757	0	9269	8815	0.000000	0	27	9269	0	0	0	nan	0	0	0	0.000000	0.000000	0.000000	0.000000	0.000000	0.000000
2	G	0	9140	8544	0.000000	0	22	9140	0	9499	8782	0.000000	0	28	9499	0	0	0	nan	0	0	0	0.000000	0.000000	0.000000	0.000000	0.000000	0.000000
3	G	134	9330	8689	0.015422	0	22	9330	77	9584	8829	0.008721	0	29	9584	0	0	0	nan	0	0	0	0.006701	0.001662	0.006701	0.001662	0.160255	0.039747
4	G	528	9351	8823	0.059844	0	22	9351	75	9590	8953	0.008377	0	29	9590	0	0	0	nan	0	0	0	0.051467	0.002778	0.051467	0.002778	1.230835	0.066436
5	C	88	9396	8986	0.009793	0	22	9396	76	9604	9120	0.008333	0	29	9604	0	0	0	nan	0	0	0	0.001460	0.001415	0.001460	0.001415	0.034916	0.033840
6	U	31	9544	9302	0.003333	0	22	9544	51	9704	9416	0.005416	0	29	9704	0	0	0	nan	0	0	0	-0.002084	0.000966	-0.002084	0.000966	-0.049839	0.023102
7	A	68	9717	9409	0.007227	0	22	9717	39	9818	9529	0.004093	0	29	9818	0	0	0	nan	0	0	0	0.003134	0.001094	0.003134	0.001094	0.074950	0.026163
8	U	1103	9983	9683	0.113911	0	22	9983	913	9982	9741	0.093728	0	29	9982	0	0	0	nan	0	0	0	0.020183	0.004624	nan	nan	nan	nan
9	A	599	10221	9876	0.060652	0	22	10221	19	10248	9900	0.001919	0	29	10248	0	0	0	nan	0	0	0	0.058733	0.002517	0.058733	0.002517	1.404601	0.060194
10	G	158	10625	10311	0.015323	0	22	10625	129	10284	9927	0.012995	0	29	10284	0	0	0	nan	0	0	0	0.002329	0.001672	0.002329	0.001672	0.055698	0.039986
11	C	63	10694	10357	0.006083	0	22	10694	60	10335	9972	0.006017	0	29	10335	0	0	0	nan	0	0	0	0.000066	0.001091	0.000066	0.001091	0.001578	0.026091
12	U	88	10889	10553	0.008339	0	22	10889	86	10479	10125	0.008494	0	29	10479	0	0	0	nan	0	0	0	-0.000155	0.001276	-0.000155	0.001276	-0.003707	0.030516
13	C	44	10914	10552	0.004170	0	22	10914	33	10504	10134	0.003256	0	29	10504	0	0	0	nan	0	0	0	0.000913	0.000846	0.000913	0.000846	0.021834	0.020232
14	A	243	10960	10538	0.023059	0	22	10960	21	10566	10172	0.002064	0	29	10566	0	0	0	nan	0	0	0	0.020995	0.001546	0.020995	0.001546	0.502096	0.036973
15	G	161	10975	10596	0.015194	0	22	10975	99	10573	10191	0.009714	0	29	10573	0	0	0	nan	0	0	0	0.005480	0.001545	0.005480	0.001545	0.131054	0.036949
16	C	423	11026	10618	0.039838	0	22	11026	134	10646	10260	0.013060	0	29	10646	0	0	0	nan	0	0	0	0.026778	0.002242	0.026778	0.002242	0.640397	0.053617
17	U	144	11066	10636	0.013539	0	22	11066	191	10685	10269	0.018600	0	29	10685	0	0	0	nan	0	0	0	-0.005061	0.001756	-0.005061	0.001756	-0.121034	0.04199

Note: MaP_analysis/MaP_data_rep2/Eco_invivo_rep2_Ala-GGC-1-1_varna_colors.txt
0.000000
0.000000
0.160255
0.850000
0.034916
0.000000
0.074950
0.000000
0.850000
0.055698
0.001578
0.000000
0.021834
0.502096
0.131054
0.640397
0.000000
0.398663
0.273564
0.850000
0.112401
0.048045
0.159011
0.634394
0.013464
0.154419
0.071673
0.094943
0.026402
0.419565
0.071458
0.308839
0.073874
0.679115
0.838915
0.850000
0.850000
0.000000
0.523500
0.040488
0.163603
0.109268
0.541006
0.077413
0.224060
0.000000
0.083320
0.044075
0.181085
0.138707
0.161809
0.267537
0.431953
0.000000
0.030372
0.136914
0.008920
0.850000
0.000000
0.000000
0.000000
0.000000
0.264118
0.000000
0.000000
0.000000
0.024585
0.476435
0.028076
0.000000
0.018534
0.016119
0.850000
0.850000
0.587712
0.000000

Note: MaP_analysis/MaP_data_rep2/Eco_invivo_rep2_Ala-TGC-1-1_profile.txt
Nucleotide	Sequence	Modified_mutations	Modified_read_depth	Modified_effective_depth	Modified_rate	Modified_off_target_mapped_depth	Modified_low_mapq_mapped_depth	Modified_mapped_depth	Untreated_mutations	Untreated_read_depth	Untreated_effective_depth	Untreated_rate	Untreated_off_target_mapped_depth	Untreated_low_mapq_mapped_depth	Untreated_mapped_depth	Denatured_mutations	Denatured_read_depth	Denatured_effective_depth	Denatured_rate	Denatured_off_target_mapped_depth	Denatured_low_mapq_mapped_depth	Denatured_mapped_depth	Reactivity_profile	Std_err	HQ_profile	HQ_stderr	Norm_profile	Norm_stderr
1	G	0	27424	26213	0.000000	0	33	27424	0	28215	26941	0.000000	0	63	28215	0	0	0	nan	0	0	0	0.000000	0.000000	0.000000	0.000000	0.000000	0.000000
2	G	0	28692	26839	0.000000	0	33	28692	0	28923	26930	0.000000	0	65	28923	0	0	0	nan	0	0	0	0.000000	0.000000	0.000000	0.000000	0.000000	0.000000
3	G	363	29293	27244	0.013324	0	34	29293	205	29242	27103	0.007564	0	67	29242	0	0	0	nan	0	0	0	0.005760	0.000876	0.005760	0.000876	0.129552	0.019703
4	G	1450	29360	27598	0.052540	0	35	29360	243	29266	27461	0.008849	0	67	29266	0	0	0	nan	0	0	0	0.043691	0.001492	0.043691	0.001492	0.982681	0.033557
5	C	303	29557	28171	0.010756	0	35	29557	270	29334	27938	0.009664	0	67	29334	0	0	0	nan	0	0	0	0.001091	0.000853	0.001091	0.000853	0.024538	0.019185
6	U	148	30157	29352	0.005042	0	35	30157	127	29813	28993	0.004380	0	68	29813	0	0	0	nan	0	0	0	0.000662	0.000568	0.000662	0.000568	0.014889	0.012775
7	A	142	30960	30091	0.004719	0	35	30960	87	30373	29476	0.002952	0	69	30373	0	0	0	nan	0	0	0	0.001767	0.000507	0.001767	0.000507	0.039743	0.011403
8	U	6895	32009	30946	0.222807	0	36	32009	4699	31184	30446	0.154339	0	71	31184	0	0	0	nan	0	0	0	0.068469	0.003503	nan	nan	nan	nan
9	A	1835	33558	32502	0.056458	0	36	33558	65	32387	31354	0.002073	0	72	32387	0	0	0	nan	0	0	0	0.054385	0.001343	0.054385	0.001343	1.223207	0.030206
10	G	508	35181	34147	0.014877	0	36	35181	407	32519	31495	0.012923	0	72	32519	0	0	0	nan	0	0	0	0.001954	0.000920	0.001954	0.000920	0.043949	0.020692
11	C	217	35492	34411	0.006306	0	36	35492	170	32697	31574	0.005384	0	72	32697	0	0	0	nan	0	0	0	0.000922	0.000595	0.000922	0.000595	0.020737	0.013383
12	U	342	36394	35249	0.009702	0	36	36394	307	33214	32073	0.009572	0	72	33214	0	0	0	nan	0	0	0	0.000130	0.000757	0.000130	0.000757	0.002924	0.017026
13	C	176	36517	35209	0.004999	0	36	36517	91	33307	32088	0.002836	0	72	33307	0	0	0	nan	0	0	0	0.002163	0.000480	0.002163	0.000480	0.048649	0.010796
14	A	653	36677	35207	0.018547	0	36	36677	44	33485	32210	0.001366	0	72	33485	0	0	0	nan	0	0	0	0.017181	0.000754	0.017181	0.000754	0.386429	0.016959
15	G	526	36731	35377	0.014868	0	36	36731	282	33505	32311	0.008728	0	73	33505	0	0	0	nan	0	0	0	0.006141	0.000831	0.006141	0.000831	0.138121	0.018691
16	C	1556	36902	35509	0.043820	0	36	36902	367	33715	32495	0.011294	0	73	33715	0	0	0	nan	0	0	0	0.032526	0.001258	0.032526	0.001258	0.731562	0.028294
17	U	517	37079	35581	0.014530	0	36	37079	589	33867	32545	0.018098	0	73	33867	0	0	0	na

Note: MaP_analysis/MaP_data_rep2/Eco_invivo_rep2_Ala-TGC-1-1_varna_colors.txt
0.000000
0.000000
0.129552
0.850000
0.024538
0.014889
0.039743
0.000000
0.850000
0.043949
0.020737
0.002924
0.048649
0.386429
0.138121
0.731562
0.000000
0.255977
0.184431
0.850000
0.104114
0.063381
0.158566
0.638695
0.043769
0.076359
0.046378
0.000000
0.026113
0.502755
0.036729
0.000000
0.000000
0.429095
0.850000
0.850000
0.850000
0.850000
0.399339
0.037786
0.097366
0.207598
0.536268
0.103551
0.122489
0.000000
0.018331
0.057421
0.016037
0.105868
0.026023
0.250287
0.376037
0.000000
0.000000
0.070129
0.000000
0.850000
0.000000
0.003779
0.000000
0.000000
0.073997
0.006860
0.000000
0.026698
0.044376
0.437035
0.039833
0.000000
0.042937
0.000000
0.815546
0.850000
0.850000
0.000000

Note: README.md
# tRNA_structure-seq

Research articles: 
  (1) R. Y amagami, J.P . Sieg, S.M. Assmann, and P .C. Bevilacqua*. “Genome-wide analysis of the in vivo tRNA structurome reveals RNA structural andd modification dynamics under heat stress”, Proc. Natl. Acad. Sci. U.S.A., 119: 22201237119, (2022)
  
  (2) manuscript in review.

Method article: manuscript in preparation.

File: Eco_invivo_rep2_Ser-TGA-1-1_profile.txt
Nucleotide	Sequence	Modified_mutations	Modified_read_depth	Modified_effective_depth	Modified_rate	Modified_off_target_mapped_depth	Modified_low_mapq_mapped_depth	Modified_mapped_depth	Untreated_mutations	Untreated_read_depth	Untreated_effective_depth	Untreated_rate	Untreated_off_target_mapped_depth	Untreated_low_mapq_mapped_depth	Untreated_mapped_depth	Denatured_mutations	Denatured_read_depth	Denatured_effective_depth	Denatured_rate	Denatured_off_target_mapped_depth	Denatured_low_mapq_mapped_depth	Denatured_mapped_depth	Reactivity_profile	Std_err	HQ_profile	HQ_stderr	Norm_profile	Norm_stderr
1	G	0	2402	2288	0.000000	0	0	2402	0	2806	2679	0.000000	0	0	2806	0	0	0	nan	0	0	0	0.000000	0.000000	0.000000	0.000000	0.000000	0.000000
3	A	15	2593	2504	0.005990	0	0	2593	5	2880	2777	0.001801	0	0	2880	0	0	0	nan	0	0	0	0.004190	0.001744	0.004190	0.001744	0.104117	0.043337
5	G	240	2621	2516	0.095390	0	0	2621	30	2889	2750	0.010909	0	0	2889	0	0	0	nan	0	0	0	0.084480	0.006471	0.084480	0.006471	2.099247	0.160798
7	G	55	2659	2504	0.021965	0	0	2659	27	2915	2758	0.009790	0	0	2915	0	0	0	nan	0	0	0	0.012175	0.003510	0.012175	0.003510	0.302537	0.087220
9	G	50	2734	2579	0.019387	0	0	2734	26	3000	2826	0.009200	0	0	3000	0	0	0	nan	0	0	0	0.010187	0.003282	0.010187	0.003282	0.253137	0.081555
11	C	40	2794	2683	0.014909	0	0	2794	35	3033	2899	0.012073	0	0	3033	0	0	0	nan	0	0	0	0.002836	0.003118	0.002836	0.003118	0.070472	0.077479
13	G	30	2828	2606	0.011512	0	0	2828	10	3080	2841	0.003520	0	0	3080	0	0	0	nan	0	0	0	0.007992	0.002378	0.007992	0.002378	0.198594	0.059091
15	G	84	2862	2643	0.031782	0	0	2862	37	3096	2872	0.012883	0	0	3096	0	0	0	nan	0	0	0	0.018899	0.004063	0.018899	0.004063	0.469622	0.100962
17	G	53	2937	2829	0.018735	0	0	2937	23	3132	3013	0.007634	0	0	3132	0	0	0	nan	0	0	0	0.011101	0.003026	0.011101	0.003026	0.275849	0.075193
19	U	65	3429	3282	0.019805	0	0	3429	101	3303	3177	0.031791	0	0	3303	0	0	0	nan	0	0	0	-0.011986	0.004005	-0.011986	0.004005	-0.297841	0.099520
21	G	74	3735	3533	0.020945	0	0	3735	23	3577	3398	0.006769	0	0	3577	0	0	0	nan	0	0	0	0.014177	0.002814	0.014177	0.002814	0.352285	0.069925
23	A	325	3879	3648	0.089090	0	0	3879	19	3623	3414	0.005565	0	0	3623	0	0	0	nan	0	0	0	0.083525	0.005104	0.083525	0.005104	2.075516	0.126830
25	G	153	4086	3896	0.039271	0	0	4086	48	3642	3470	0.013833	0	0	3642	0	0	0	nan	0	0	0	0.025438	0.003751	0.025438	0.003751	0.632110	0.093209
27	A	361	4134	3944	0.091531	0	0	4134	44	3663	3511	0.012532	0	0	3663	0	0	0	nan	0	0	0	0.078999	0.005175	0.078999	0.005175	1.963049	0.128594
29	C	41	4167	3991	0.010273	0	0	4167	39	3701	3539	0.011020	0	0	3701	0	0	0	nan	0	0	0	-0.000747	0.002385	-0.000747	0.002385	-0.018562	0.059265
31	G	171	4179	3956	0.043225	0	0	4179	36	3723	3500	0.010286	0	0	3723	0	0	0	nan	0	0	0	0.032940	0.003724	0.032940	0.003724	0.818527	0.092538
33	C	184	4229	4063	0.045287	0	0	4229	95	3785	3621	0.026236	0	0	3785	0	0	0	nan	0	0	0	0.019051	0.004289	0.019051	0.004289	0.473399	0.106578
35	U	363	4382	4176	0.086925	0	0	4382	182	3974	3792	0.047996	0	0	3974	0	0	0	nan	0	0	0	0.038930	0.005786	0.038930	0.005786	0.967373	0.143777
37	A	26	4498	4289	0.006062	0	0	4498	8	4082	3894	0.002054	0	0	4082	0	0	0	nan	0	0	0	0.004008	0.001393	0.004008	0.001393	0.099595	0.034615
39	A	187	4667	4256	0.043938	0	0	4667	6	4201	3867	0.001552	0	0	4201	0	0	0	nan	0	0	0	0.042386	0.003275	0.042386	0.003275	1.053251	0.081381
41	C	37	4759	4399	0.008411	0	0	4759	28	4214	3905	0.007170	0	0	4214	0	0	0	nan	0	0	0	0.001241	0.001936	0.001241	0.001936	0.030838	0.048108
43	G	113	4770	4471	0.025274	0	0	4770	48	4224	3977	0.012069	0	0	4224	0	0	0	nan	0	0	0	0.013205	0.002947	0.013205	0.002947	0.328132	0.073230
45	C	253	4773	4516	0.056023	0	0	4773	71	4227	3999	0.017754	0	0	4227	0	0	0	nan	0	0	0	0.038269	0.004104	0.038269	0.004104	0.950948	0.101980
47	A	202	4782	4287	0.047119	0	0	4782	38	4236	3810	0.009974	0	1	4236	0	0	0	nan	0	0	0	0.037145	0.003689	0.037145	0.003689	0.923018	0.091668
49	C	31	4783	4575	0.006776	0	0	4783	27	4242	4059	0.006652	0	1	4242	0	0	0	nan	0	0	0	0.000124	0.001766	0.000124	0.001766	0.003081	0.043883
51	G	85	4783	4550	0.018681	0	0	4783	20	4240	4038	0.004953	0	1	4240	0	0	0	nan	0	0	0	0.013728	0.002309	0.013728	0.002309	0.341128	0.057376
53	A	189	4786	4672	0.040454	0	0	4786	16	4241	4132	0.003872	0	1	4241	0	0	0	nan	0	0	0	0.036582	0.003098	0.036582	0.003098	0.909028	0.076982
55	G	157	4780	4478	0.035060	0	0	4780	59	4236	3956	0.014914	0	1	4236	0	0	0	nan	0	0	0	0.020146	0.003406	0.020146	0.003406	0.500609	0.084636
57	G	196	4779	4376	0.044790	0	0	4779	35	4230	3847	0.009098	0	1	4230	0	0	0	nan	0	0	0	0.035692	0.003550	0.035692	0.003550	0.886912	0.088214
59	U	50	4790	4457	0.011218	0	0	4790	58	4239	3944	0.014706	0	1	4239	0	0	0	nan	0	0	0	-0.003488	0.002499	-0.003488	0.002499	-0.086673	0.062098
61	C	22	4824	4531	0.004855	0	0	4824	5	4250	4004	0.001249	0	1	4250	0	0	0	nan	0	0	0	0.003607	0.001176	0.003607	0.001176	0.089630	0.029222
63	G	63	4825	4646	0.013560	0	0	4825	23	4257	4090	0.005623	0	1	4257	0	0	0	nan	0	0	0	0.007937	0.002072	0.007937	0.002072	0.197227	0.051487
65	G	216	4819	4527	0.047714	0	0	4819	50	4258	4028	0.012413	0	1	4258	0	0	0	nan	0	0	0	0.035301	0.003691	0.035301	0.003691	0.877196	0.091718
67	U	83	4819	4431	0.018732	0	0	4819	79	4262	3938	0.020061	0	1	4262	0	0	0	nan	0	0	0	-0.001329	0.003053	-0.001329	0.003053	-0.033024	0.075864
69	G	18	4816	4440	0.004054	0	0	4816	16	4262	4013	0.003987	0	1	4262	0	0	0	nan	0	0	0	0.000067	0.001381	0.000067	0.001381	0.001665	0.034317
71	A	62	4814	4458	0.013908	0	0	4814	44	4260	3956	0.011122	0	1	4260	0	0	0	nan	0	0	0	0.002785	0.002435	0.002785	0.002435	0.069205	0.060507
73	C	33	4812	4530	0.007285	0	0	4812	36	4253	3983	0.009038	0	1	4253	0	0	0	nan	0	0	0	-0.001754	0.001969	-0.001754	0.001969	-0.043585	0.048928
75	C	65	4801	4358	0.014915	0	0	4801	54	4245	3812	0.014166	0	1	4245	0	0	0	nan	0	0	0	0.000749	0.002672	0.000749	0.002672	0.018612	0.066397
77	G	102	4795	4074	0.025037	0	0	4795	45	4233	3512	0.012813	0	1	4233	0	0	0	nan	0	0	0	0.012224	0.003130	0.012224	0.003130	0.303755	0.077778
79	G	131	4791	4074	0.032155	0	0	4791	48	4227	3437	0.013966	0	1	4227	0	0	0	nan	0	0	0	0.018189	0.003458	0.018189	0.003458	0.451979	0.085928
81	U	60	4787	4409	0.013609	0	0	4787	47	4227	3890	0.012082	0	1	4227	0	0	0	nan	0	0	0	0.001526	0.002488	0.001526	0.002488	0.037920	0.061824
83	C	51	4781	4374	0.011660	0	0	4781	50	4225	3848	0.012994	0	1	4225	0	0	0	nan	0	0	0	-0.001334	0.002458	-0.001334	0.002458	-0.033149	0.061079
85	G	265	4757	4234	0.062589	0	0	4757	86	4212	3761	0.022866	0	1	4212	0	0	0	nan	0	0	0	0.039722	0.004568	0.039722	0.004568	0.987054	0.113510
87	C	208	4737	4197	0.049559	0	0	4737	7	4208	3832	0.001827	0	1	4208	0	0	0	nan	0	0	0	0.047732	0.003505	0.047732	0.003505	1.186094	0.087096
88	A	0	4582	0	nan	0	0	4582	0	4149	0	nan	0	1	4149	0	0	0	nan	0	0	0	nan	nan	nan	nan	nan	nan

File: Eco_invivo_rep2_Ser-TGA-1-1_varna_colors.txt
0.000000
0.000000
0.104117
0.106230
0.850000
0.000000
0.302537
0.000000
0.253137
0.850000
0.070472
0.175161
0.198594
0.509704
0.469622
0.738364
0.275849
0.212484
0.000000
0.000000
0.352285
0.279726
0.850000
0.040181
0.632110
0.030962
0.850000
0.000000
0.000000
0.394329
0.818527
0.000000
0.473399
0.000000
0.850000
0.336183
0.099595
0.000000
0.850000
0.011654
0.030838
0.000000
0.328132
0.627413
0.850000
0.132271
0.850000
0.000000
0.003081
0.007330
0.341128
0.850000
0.850000
0.850000
0.500609
0.365554
0.850000
0.000000
0.000000
0.114330
0.089630
0.267922
0.197227
0.254852
0.850000
0.000000
0.000000
0.000000
0.001665
0.850000
0.069205
0.000000
0.000000
0.000000
0.018612
0.006635
0.303755
0.083965
0.451979
0.095694
0.037920
0.000000
0.000000
0.000000
0.850000
0.850000
0.850000
0.000000